# from http://www.stsci.edu/jwst/instruments/nircam/instrumentdesign/filters
# Retrieved March, 2023, dated Nov, 2022 (post-flight)
# Uses modA or modB  filters+DBS+QE+OTE (nrc_plus_ote)
# Units of transmission are PCE (photon to electron conversion efficiency)
# 
7475.5  0.000000e+00
7485.5  0.000000e+00
7495.5  3.744746e-07
7505.5  4.500411e-07
7515.5  4.835058e-07
7525.5  4.452473e-07
7535.5  4.362551e-07
7545.5  5.142965e-07
7555.5  4.079332e-07
7565.5  3.896060e-07
7575.5  4.074973e-07
7585.5  4.616241e-07
7595.5  5.414297e-07
7605.5  5.616349e-07
7615.5  5.277514e-07
7625.5  5.374486e-07
7635.5  5.946797e-07
7645.5  6.457174e-07
7655.5  6.499553e-07
7665.5  6.211024e-07
7675.5  7.334328e-07
7685.5  8.731603e-07
7695.5  1.226592e-06
7705.5  1.544733e-06
7715.5  2.324895e-06
7725.5  3.412494e-06
7735.5  5.377601e-06
7745.5  8.517699e-06
7755.5  1.291181e-05
7765.5  1.907525e-05
7775.5  2.744913e-05
7785.5  3.879087e-05
7795.5  5.280508e-05
7805.5  7.385024e-05
7815.5  1.046433e-04
7825.5  1.558172e-04
7835.5  2.539230e-04
7845.5  4.296226e-04
7855.5  8.192638e-04
7865.5  1.753913e-03
7875.5  3.901675e-03
7885.5  8.982355e-03
7895.5  2.054679e-02
7905.5  4.137317e-02
7915.5  7.345088e-02
7925.5  1.137290e-01
7935.5  1.586272e-01
7945.5  1.965345e-01
7955.5  2.253853e-01
7965.5  2.462454e-01
7975.5  2.571224e-01
7985.5  2.624038e-01
7995.5  2.643219e-01
8005.5  2.654286e-01
8015.5  2.643351e-01
8025.5  2.608242e-01
8035.5  2.572781e-01
8045.5  2.540047e-01
8055.5  2.525007e-01
8065.5  2.505503e-01
8075.5  2.483091e-01
8085.5  2.464596e-01
8095.5  2.470231e-01
8105.5  2.492150e-01
8115.5  2.532257e-01
8125.5  2.578657e-01
8135.5  2.615180e-01
8145.5  2.663802e-01
8155.5  2.682166e-01
8165.5  2.706880e-01
8175.5  2.730230e-01
8185.5  2.751572e-01
8195.5  2.761486e-01
8205.5  2.772492e-01
8215.5  2.785176e-01
8225.5  2.767089e-01
8235.5  2.756051e-01
8245.5  2.739216e-01
8255.5  2.711602e-01
8265.5  2.695221e-01
8275.5  2.680550e-01
8285.5  2.679419e-01
8295.5  2.683587e-01
8305.5  2.673291e-01
8315.5  2.679467e-01
8325.5  2.681475e-01
8335.5  2.681011e-01
8345.5  2.678580e-01
8355.5  2.709617e-01
8365.5  2.739027e-01
8375.5  2.772563e-01
8385.5  2.798916e-01
8395.5  2.812778e-01
8405.5  2.826913e-01
8415.5  2.845441e-01
8425.5  2.842974e-01
8435.5  2.834334e-01
8445.5  2.827811e-01
8455.5  2.798678e-01
8465.5  2.782826e-01
8475.5  2.757388e-01
8485.5  2.742676e-01
8495.5  2.743029e-01
8505.5  2.750620e-01
8515.5  2.771030e-01
8525.5  2.776833e-01
8535.5  2.777002e-01
8545.5  2.790860e-01
8555.5  2.784920e-01
8565.5  2.804253e-01
8575.5  2.821746e-01
8585.5  2.846855e-01
8595.5  2.864145e-01
8605.5  2.905167e-01
8615.5  2.924242e-01
8625.5  2.920251e-01
8635.5  2.908455e-01
8645.5  2.913792e-01
8655.5  2.921481e-01
8665.5  2.956987e-01
8675.5  2.929590e-01
8685.5  2.906042e-01
8695.5  2.908722e-01
8705.5  2.907696e-01
8715.5  2.864291e-01
8725.5  2.883481e-01
8735.5  2.879405e-01
8745.5  2.888280e-01
8755.5  2.861373e-01
8765.5  2.864774e-01
8775.5  2.909064e-01
8785.5  2.911991e-01
8795.5  2.901166e-01
8805.5  2.945196e-01
8815.5  2.920888e-01
8825.5  2.957496e-01
8835.5  2.929347e-01
8845.5  2.974510e-01
8855.5  2.931398e-01
8865.5  2.902264e-01
8875.5  2.999692e-01
8885.5  3.036052e-01
8895.5  3.010016e-01
8905.5  2.939823e-01
8915.5  2.972101e-01
8925.5  2.957300e-01
8935.5  2.947845e-01
8945.5  2.947786e-01
8955.5  2.922315e-01
8965.5  2.865331e-01
8975.5  2.907625e-01
8985.5  2.911621e-01
8995.5  2.899823e-01
9005.5  2.916589e-01
9015.5  2.920903e-01
9025.5  2.934390e-01
9035.5  2.927101e-01
9045.5  2.932260e-01
9055.5  2.961911e-01
9065.5  2.960036e-01
9075.5  2.953960e-01
9085.5  2.978181e-01
9095.5  2.983873e-01
9105.5  2.988518e-01
9115.5  2.997546e-01
9125.5  3.006376e-01
9135.5  3.009204e-01
9145.5  3.022469e-01
9155.5  3.016773e-01
9165.5  3.037343e-01
9175.5  3.023544e-01
9185.5  3.039533e-01
9195.5  3.036292e-01
9205.5  3.029326e-01
9215.5  3.027751e-01
9225.5  3.029062e-01
9235.5  3.031524e-01
9245.5  3.023823e-01
9255.5  3.035943e-01
9265.5  3.033622e-01
9275.5  3.028315e-01
9285.5  3.031816e-01
9295.5  3.033548e-01
9305.5  3.034865e-01
9315.5  3.036077e-01
9325.5  3.036805e-01
9335.5  3.030936e-01
9345.5  3.032955e-01
9355.5  3.025221e-01
9365.5  3.023968e-01
9375.5  3.015922e-01
9385.5  2.999991e-01
9395.5  2.992045e-01
9405.5  2.978113e-01
9415.5  2.958942e-01
9425.5  2.955189e-01
9435.5  2.956493e-01
9445.5  2.958654e-01
9455.5  2.965954e-01
9465.5  2.967371e-01
9475.5  2.968586e-01
9485.5  2.981755e-01
9495.5  2.991346e-01
9505.5  2.988058e-01
9515.5  3.014626e-01
9525.5  2.999201e-01
9535.5  3.004144e-01
9545.5  3.003564e-01
9555.5  2.999459e-01
9565.5  2.990510e-01
9575.5  2.979456e-01
9585.5  2.997814e-01
9595.5  2.988131e-01
9605.5  2.995406e-01
9615.5  3.001160e-01
9625.5  3.004630e-01
9635.5  3.006046e-01
9645.5  3.013956e-01
9655.5  3.007803e-01
9665.5  3.002008e-01
9675.5  3.011513e-01
9685.5  3.010191e-01
9695.5  3.010238e-01
9705.5  3.011796e-01
9715.5  3.012565e-01
9725.5  3.012523e-01
9735.5  3.012555e-01
9745.5  2.987481e-01
9755.5  3.006209e-01
9765.5  2.986785e-01
9775.5  2.982537e-01
9785.5  2.990367e-01
9795.5  2.979788e-01
9805.5  2.967983e-01
9815.5  2.992538e-01
9825.5  2.987319e-01
9835.5  2.988521e-01
9845.5  2.989908e-01
9855.5  2.998446e-01
9865.5  2.987683e-01
9875.5  2.990529e-01
9885.5  3.001340e-01
9895.5  2.997999e-01
9905.5  3.005598e-01
9915.5  2.990379e-01
9925.5  2.994396e-01
9935.5  2.981462e-01
9945.5  2.984434e-01
9955.5  2.980504e-01
9965.5  2.974727e-01
9975.5  2.951933e-01
9985.5  2.892332e-01
9995.5  2.801853e-01
10005.5  2.625895e-01
10015.5  2.411687e-01
10025.5  2.122877e-01
10035.5  1.798095e-01
10045.5  1.559448e-01
10055.5  1.293923e-01
10065.5  1.084577e-01
10075.5  8.790613e-02
10085.5  7.455765e-02
10095.5  6.153480e-02
10105.5  5.215092e-02
10115.5  4.521328e-02
10125.5  3.831377e-02
10135.5  3.256896e-02
10145.5  2.890256e-02
10155.5  2.502029e-02
10165.5  2.120848e-02
10175.5  1.769644e-02
10185.5  1.414004e-02
10195.5  1.086163e-02
10205.5  8.311468e-03
10215.5  6.203111e-03
10225.5  4.307138e-03
10235.5  3.402724e-03
10245.5  2.417318e-03
10255.5  1.767759e-03
10265.5  1.247887e-03
10275.5  9.343863e-04
10285.5  6.926745e-04
10295.5  4.930795e-04
10305.5  4.045200e-04
10315.5  2.999668e-04
10325.5  2.310417e-04
10335.5  1.771711e-04
10345.5  1.399375e-04
10355.5  1.073826e-04
10365.5  8.681982e-05
10375.5  7.111766e-05
10385.5  5.509222e-05
10395.5  4.510595e-05
10405.5  3.659579e-05
10415.5  2.994222e-05
10425.5  2.457773e-05
10435.5  2.005571e-05
10445.5  1.719112e-05
10455.5  1.366571e-05
10465.5  1.162394e-05
10475.5  1.001928e-05
10485.5  7.918235e-06
10495.5  8.004998e-06
10505.5  6.471411e-06
10515.5  5.532344e-06
10525.5  4.676640e-06
10535.5  4.192172e-06
10545.5  2.470187e-06
10555.5  3.879037e-06
10565.5  4.002308e-06
10575.5  2.853885e-06
10585.5  2.952993e-06
10595.5  2.348277e-06
10605.5  2.097693e-06
10615.5  2.495275e-06
10625.5  1.620339e-06
10635.5  1.221034e-06
10645.5  1.669577e-06
10655.5  1.457448e-06
10665.5  2.442553e-06
10675.5  1.017270e-06
10685.5  2.639204e-06
10695.5  2.003997e-06
10705.5  1.770129e-06
10715.5  0.000000e+00
10725.5  0.000000e+00
