# from http://www.stsci.edu/jwst/instruments/nircam/instrumentdesign/filters
# Retrieved March, 2023, dated Nov, 2022 (post-flight)
# Uses modA or modB  filters+DBS+QE+OTE (nrc_plus_ote)
# Units of transmission are PCE (photon to electron conversion efficiency)
# 
12483.5  0.000000e+00
12493.5  0.000000e+00
12503.5  3.542107e-06
12513.5  3.321351e-06
12523.5  4.289431e-06
12533.5  6.146761e-06
12543.5  3.286900e-06
12553.5  5.080354e-06
12563.5  5.674447e-06
12573.5  5.270403e-06
12583.5  6.002187e-06
12593.5  6.511950e-06
12603.5  7.689025e-06
12613.5  7.247288e-06
12623.5  8.184815e-06
12633.5  9.474426e-06
12643.5  1.201914e-05
12653.5  1.266129e-05
12663.5  1.466896e-05
12673.5  1.491485e-05
12683.5  1.927773e-05
12693.5  2.077579e-05
12703.5  2.463423e-05
12713.5  2.945484e-05
12723.5  3.230410e-05
12733.5  3.691552e-05
12743.5  4.018066e-05
12753.5  4.577845e-05
12763.5  5.240159e-05
12773.5  6.270581e-05
12783.5  6.682422e-05
12793.5  7.707142e-05
12803.5  8.669439e-05
12813.5  9.931390e-05
12823.5  1.116227e-04
12833.5  1.306637e-04
12843.5  1.447862e-04
12853.5  1.644238e-04
12863.5  1.835527e-04
12873.5  2.176321e-04
12883.5  2.491415e-04
12893.5  2.893936e-04
12903.5  3.493833e-04
12913.5  3.969534e-04
12923.5  4.733029e-04
12933.5  5.390979e-04
12943.5  6.538909e-04
12953.5  7.916788e-04
12963.5  9.675599e-04
12973.5  1.159254e-03
12983.5  1.408250e-03
12993.5  1.708727e-03
13003.5  2.084370e-03
13013.5  2.557658e-03
13023.5  3.089556e-03
13033.5  3.781950e-03
13043.5  4.660604e-03
13053.5  5.313065e-03
13063.5  6.735736e-03
13073.5  7.946453e-03
13083.5  9.081105e-03
13093.5  1.033500e-02
13103.5  1.171913e-02
13113.5  1.317327e-02
13123.5  1.384629e-02
13133.5  1.606203e-02
13143.5  1.745074e-02
13153.5  2.013897e-02
13163.5  2.253190e-02
13173.5  2.582650e-02
13183.5  2.964122e-02
13193.5  3.461556e-02
13203.5  3.902101e-02
13213.5  4.613530e-02
13223.5  5.265927e-02
13233.5  6.317356e-02
13243.5  7.078843e-02
13253.5  8.336716e-02
13263.5  9.626256e-02
13273.5  1.131370e-01
13283.5  1.356353e-01
13293.5  1.550392e-01
13303.5  1.838287e-01
13313.5  2.076184e-01
13323.5  2.428180e-01
13333.5  2.802344e-01
13343.5  3.116145e-01
13353.5  3.375411e-01
13363.5  3.639153e-01
13373.5  3.846664e-01
13383.5  3.934998e-01
13393.5  4.059516e-01
13403.5  4.213929e-01
13413.5  4.175810e-01
13423.5  4.250185e-01
13433.5  4.232856e-01
13443.5  4.218829e-01
13453.5  4.292874e-01
13463.5  4.257927e-01
13473.5  4.218573e-01
13483.5  4.378424e-01
13493.5  4.271258e-01
13503.5  4.353651e-01
13513.5  4.279583e-01
13523.5  4.348454e-01
13533.5  4.284876e-01
13543.5  4.309862e-01
13553.5  4.307870e-01
13563.5  4.269553e-01
13573.5  4.284853e-01
13583.5  4.295006e-01
13593.5  4.284137e-01
13603.5  4.284002e-01
13613.5  4.326528e-01
13623.5  4.282500e-01
13633.5  4.257900e-01
13643.5  4.357140e-01
13653.5  4.313299e-01
13663.5  4.330696e-01
13673.5  4.341554e-01
13683.5  4.303612e-01
13693.5  4.309261e-01
13703.5  4.311763e-01
13713.5  4.277212e-01
13723.5  4.302043e-01
13733.5  4.340595e-01
13743.5  4.208349e-01
13753.5  4.293513e-01
13763.5  4.225977e-01
13773.5  4.234996e-01
13783.5  4.215739e-01
13793.5  4.182338e-01
13803.5  4.169801e-01
13813.5  4.185895e-01
13823.5  4.130580e-01
13833.5  4.127848e-01
13843.5  4.162626e-01
13853.5  4.080578e-01
13863.5  4.142605e-01
13873.5  4.122961e-01
13883.5  4.117306e-01
13893.5  4.129283e-01
13903.5  4.133785e-01
13913.5  4.104670e-01
13923.5  4.103892e-01
13933.5  4.134247e-01
13943.5  4.124622e-01
13953.5  4.127211e-01
13963.5  4.091854e-01
13973.5  4.092526e-01
13983.5  4.223315e-01
13993.5  4.178885e-01
14003.5  4.143247e-01
14013.5  4.167884e-01
14023.5  4.248051e-01
14033.5  4.178229e-01
14043.5  4.230932e-01
14053.5  4.294772e-01
14063.5  4.161559e-01
14073.5  4.302058e-01
14083.5  4.280409e-01
14093.5  4.313186e-01
14103.5  4.294684e-01
14113.5  4.325560e-01
14123.5  4.328656e-01
14133.5  4.380507e-01
14143.5  4.315135e-01
14153.5  4.414069e-01
14163.5  4.378263e-01
14173.5  4.420596e-01
14183.5  4.451506e-01
14193.5  4.461267e-01
14203.5  4.412830e-01
14213.5  4.458788e-01
14223.5  4.483783e-01
14233.5  4.453324e-01
14243.5  4.493166e-01
14253.5  4.511212e-01
14263.5  4.455096e-01
14273.5  4.486349e-01
14283.5  4.440709e-01
14293.5  4.485351e-01
14303.5  4.537172e-01
14313.5  4.499645e-01
14323.5  4.473586e-01
14333.5  4.443557e-01
14343.5  4.461589e-01
14353.5  4.483836e-01
14363.5  4.475403e-01
14373.5  4.448680e-01
14383.5  4.478200e-01
14393.5  4.456788e-01
14403.5  4.512049e-01
14413.5  4.446372e-01
14423.5  4.415574e-01
14433.5  4.523955e-01
14443.5  4.486856e-01
14453.5  4.467306e-01
14463.5  4.492894e-01
14473.5  4.500208e-01
14483.5  4.562249e-01
14493.5  4.547542e-01
14503.5  4.501104e-01
14513.5  4.518715e-01
14523.5  4.568655e-01
14533.5  4.566992e-01
14543.5  4.584582e-01
14553.5  4.599534e-01
14563.5  4.538583e-01
14573.5  4.598237e-01
14583.5  4.634621e-01
14593.5  4.573030e-01
14603.5  4.610502e-01
14613.5  4.596968e-01
14623.5  4.620808e-01
14633.5  4.643833e-01
14643.5  4.693645e-01
14653.5  4.612225e-01
14663.5  4.627421e-01
14673.5  4.607140e-01
14683.5  4.596658e-01
14693.5  4.535235e-01
14703.5  4.490846e-01
14713.5  4.416191e-01
14723.5  4.275898e-01
14733.5  4.105090e-01
14743.5  3.884146e-01
14753.5  3.586867e-01
14763.5  3.398465e-01
14773.5  3.015018e-01
14783.5  2.699971e-01
14793.5  2.330133e-01
14803.5  2.016133e-01
14813.5  1.748504e-01
14823.5  1.476149e-01
14833.5  1.255406e-01
14843.5  1.095247e-01
14853.5  9.347832e-02
14863.5  7.988456e-02
14873.5  6.659144e-02
14883.5  6.130155e-02
14893.5  5.008075e-02
14903.5  4.408665e-02
14913.5  3.833093e-02
14923.5  3.324947e-02
14933.5  2.982705e-02
14943.5  2.570092e-02
14953.5  2.376672e-02
14963.5  2.147365e-02
14973.5  1.931937e-02
14983.5  1.709034e-02
14993.5  1.534216e-02
15003.5  1.341431e-02
15013.5  1.106336e-02
15023.5  9.192737e-03
15033.5  7.668602e-03
15043.5  6.314324e-03
15053.5  5.291821e-03
15063.5  4.394880e-03
15073.5  3.765576e-03
15083.5  3.178228e-03
15093.5  2.736454e-03
15103.5  2.321349e-03
15113.5  1.978238e-03
15123.5  1.713107e-03
15133.5  1.473757e-03
15143.5  1.319578e-03
15153.5  1.123205e-03
15163.5  9.930832e-04
15173.5  8.707618e-04
15183.5  7.648719e-04
15193.5  6.752454e-04
15203.5  5.972207e-04
15213.5  5.420527e-04
15223.5  4.774757e-04
15233.5  4.276457e-04
15243.5  3.862613e-04
15253.5  3.424032e-04
15263.5  3.105695e-04
15273.5  2.788733e-04
15283.5  2.546562e-04
15293.5  2.273833e-04
15303.5  2.052310e-04
15313.5  1.901648e-04
15323.5  1.688225e-04
15333.5  1.564100e-04
15343.5  1.422406e-04
15353.5  1.262536e-04
15363.5  1.178625e-04
15373.5  1.086963e-04
15383.5  1.008769e-04
15393.5  8.954373e-05
15403.5  8.242189e-05
15413.5  7.559727e-05
15423.5  6.717430e-05
15433.5  6.421671e-05
15443.5  5.927308e-05
15453.5  5.259316e-05
15463.5  4.792353e-05
15473.5  4.587922e-05
15483.5  3.965631e-05
15493.5  3.762921e-05
15503.5  3.541641e-05
15513.5  0.000000e+00
15523.5  0.000000e+00
